File: data/raw_data_log_1.txt
Device: PM2003001		2022:09:20    10:42:59,897  (DLL version: 1.20;  Status: HW:v1.02 SW:v1.3 CRC:31ED BATTERY:4170mV ST:2 ERR:0010;  MUX data; S: 92 I:143 R:200.000 C:1.094p F:)
Excitation level, V:	2,00
Voltage Channel Gain:	5
Current Channel Gain:	1
Voltmeter Range, V:	0,6
Ampermeter Range, A:	15,0m
Step Period, ms:	5
R transimp:	200
C transimp:	1,1p
Measurement Table: 	FIXED:  6

2022:09:20    10:42:59,949
		Re, ohm   @frequency, Hz															Im, ohm   @frequency, Hz
Time, s	Mux pos	1k	2k	3k	7k	11k	17k	23k	31k	43k	61k	89k	127k	179k	251k	349k	1k	2k	3k	7k	11k	17k	23k	31k	43k	61k	89k	127k	179k	251k	349k	U, V	I , mA

  0,0000	  2,0000	-24,0018	 59,6021	945,0200	-251,6077	789,0480	703,5404	7704,9219	8988,5513	-45077,0119	334,3569	-5322,6286	-6990,3137	-10921,2394	-8737,9107	-11943,2903	147,6076	-314,6822	-572,7705	1329,6690	-5717,5016	-3818,5079	6057,9594	3780,9500	-13263,0719	5037,7133	8278,4123	788,3774	5086,5437	434,5800	2400,1859	  0,1447	  0,0806
  0,0290	  2,0000	-155,4442	  8,8262	-249,7907	6610,3603	-1092,0718	2893,9005	8767,4280	-7303,9896	-13621,4898	-1184,1368	-6230,3990	-6964,0746	-9187,9555	-8971,2645	-12076,8031	  1,2480	-352,7155	-367,4799	-9223,4902	-2561,8248	-2442,4145	4416,9268	38224,0767	9620,0228	7864,5212	5826,5750	1731,1903	4458,9298	-192,5268	484,4946	  0,1438	  0,0806
  0,0580	  2,0000	164,2725	 33,8038	280,8533	-411,0047	7829,5459	575,3623	-1812,8336	-7110,2460	15790,9544	1130,9251	-4871,3787	-8500,1295	-10333,6618	-8433,5872	-12124,3174	248,2288	-306,6845	-364,4129	1092,2227	4361,5493	-2946,3694	5527,9453	16348,3563	-5671,4601	8313,9734	5165,2950	2331,3302	4721,6371	1200,7410	1663,9375	  0,1438	  0,0806
  0,0870	  2,0000	-61,1215	-261,8033	-452,1838	-931,6507	-1907,6565	-7076,4977	-7481,2370	-19143,3975	32750,6974	4166,1361	-5677,2897	-10380,2674	-13451,5767	-8177,8069	-10277,7058	-340,3667	-384,7223	-680,3843	976,7755	-2122,0959	-12228,1002	5926,5021	16802,3389	-81693,9159	5077,0911	4724,5918	2618,7322	3176,9857	870,0709	 30,7954	  0,1441	  0,0806
  0,1150	  1,0000	222,2514	-82,1084	-804,5774	1435,2984	1174,7167	2565,6512	258,5290	7439,1206	4406,2887	9292,9821	13562,7385	10880,6098	26231,4830	19960,0343	16687,3925	144,4918	-299,7250	-843,6719	1312,4235	-1969,3987	-1361,0139	-8410,6868	1127,3154	-6462,9868	671,8994	-21437,6765	-1010,2059	6750,9947	238,8138	-1805,0595	  0,1228	  0,0586
  0,1440	  1,0000	-93,2547	-264,8770	-760,3506	-1903,4750	4324,3515	481,5389	-13099,0331	-9395,7534	6331,8388	11294,1649	9422,0001	11621,0734	11252,8691	15743,5563	16137,0480	-55,8761	-497,2696	-1120,0118	378,1246	-1549,0145	-1813,3947	-6567,8536	-10575,9367	-4195,4610	7167,3235	-10299,1892	-4473,7796	-3178,7983	-10325,8550	-2241,2272	  0,1225	  0,0586
  0,1730	  1,0000	 98,7488	256,2780	1035,9471	-2984,9806	-2534,4870	896,4059	-3558,2772	-7164,2970	7930,1541	10909,3782	17323,1505	15327,8142	15708,6349	16602,4868	15459,4147	322,0266	-277,6780	-1482,5877	6603,7217	-427,0522	-3802,9250	-9970,9094	-7267,8313	-1735,1286	-7067,2960	-8974,4857	3633,5549	-1602,6072	-4361,9462	-6026,7648	  0,1228	  0,0586
  0,2020	  1,0000	118,1632	 87,6189	1782,1558	-696,3523	-948,1293	-3930,2081	5548,9383	7141,7003	6759,1816	5406,1236	27661,0215	15625,0455	16407,7955	17689,8187	16457,0597	-164,4799	-366,0737	1535,2636	-3328,8362	-2782,2143	1379,2978	-552,6794	-7380,6023	-6516,8810	-9681,9961	1618,2018	961,6695	-9041,6355	-135,5327	-316,9378	  0,1225	  0,0586
  0,2300	  0,0000	6052,8051	-151,8822	185,7037	1509,5794	 66,3011	3440,6881	2850,2943	171,1566	-4302,9821	-46530,9805	-14230,1967	-13300,0820	-16801,8690	-12391,5282	-16649,9390	12581,6076	-203,8367	194,6549	797,9160	-1987,8771	-4452,3654	-4369,6492	-9711,5876	-9987,0621	17844,2831	3244,4661	4651,2858	9345,4681	593,9972	-1150,0684	  0,0788	  0,0732
  0,2590	  0,0000	-36,0103	-263,1762	100,9026	-1665,2411	-1214,8135	1973,2208	-494,7026	21660,2956	-1371,4009	19346,8684	-5191,5796	-10073,5054	-11351,1230	-14646,5793	-15397,0899	-26,4636	-331,5896	-335,9531	197,2000	-1322,9694	-2621,8484	-3186,9737	766,6090	-11616,6581	9258,4868	12770,8430	6599,9810	3285,1490	969,9224	1603,9232	  0,0782	  0,0732
  0,2880	  0,0000	-247,6549	129,2255	108,5054	-1412,6902	-463,8020	540,0534	-7628,8948	-3639,6049	1012,6778	4180,9410	-8357,4234	-9536,6128	-28188,0669	-11499,8408	-16272,2953	-31,9525	-207,5779	-235,1443	2133,5631	-1481,2035	-3416,4318	-12527,9156	-15005,1191	-6784,0306	10074,0706	870,1181	5158,2773	3749,1450	559,7812	1851,4346	  0,0788	  0,0659
  0,3170	  0,0000	-105,9280	189,6352	 66,8210	-527,9752	 47,5635	433,8445	-256,0057	6911,9269	636,9842	1126,2208	-9587,4165	-9054,5118	-33015,8963	-11073,1943	-20287,0972	-122,4780	-649,0300	-274,7853	1513,9436	-1166,2403	-990,1645	-3977,6701	5670,5652	-6188,2233	8991,6531	15018,6456	3814,2789	9469,5920	753,0003	-2436,8632	  0,0785	  0,0732
  0,3450	  5,0000	498,7064	-919,8534	1365,8203	1978,4499	-775,7143	31681,5596	13852,1072	21589,6842	22999,5944	22614,9279	31456,3189	34227,9656	43827,8363	41525,1373	37972,3481	 95,2004	-2804,5381	1459,1308	-1862,4726	28475,4068	-3848,7135	-9976,9050	1431,8246	7851,3949	7007,8436	9985,5345	2206,3634	10698,8134	-269,4764	-4025,0429	  0,3302	  0,0659
  0,3740	  5,0000	2232,5276	-1439,0302	-1491,1466	 46,2592	-17782,8911	-78879,2685	26822,0267	13499,7697	21809,2814	30708,5263	38265,9046	37408,4394	42434,7210	40047,3798	37798,1595	1279,2557	-4091,8942	1395,1247	-3068,4638	2184,1856	15636,4568	9117,4347	656,7892	4837,0160	126,0790	9553,7532	-17899,1782	7614,0012	-651,5541	279,3048	  0,3319	  0,0659
  0,4030	  5,0000	614,2836	8965,7296	8603,6224	438,1571	-3734,0872	10172,6416	90868,5323	29252,4610	21624,6598	21561,7368	24619,4894	31544,0731	55860,2073	41094,5071	40327,6881	 48,7418	3250,6275	-1079,1821	-3521,0311	-14104,8919	9027,5023	-60352,1523	-23282,7710	12638,1012	7327,1763	15689,6359	2583,4411	-4191,8645	-3217,0181	5552,0445	  0,3316	  0,0659
  0,4320	  5,0000	167,5833	2842,5641	-1609,4445	2075,0912	10618,0649	73407,9049	18618,5266	33473,2126	17617,6139	25271,7033	32305,3586	31490,6157	28286,9850	38372,4013	36235,9964	299,3883	-356,0051	588,9504	-4018,8301	2712,8131	-57424,9707	11852,7216	-8050,8485	7602,0049	14411,4309	14930,0172	5299,7804	8216,7977	-2427,1437	-4163,9966	  0,3334	  0,0732
  0,4600	  4,0000	644,4956	782,5762	-223,3015	442,3307	4598,7623	-21465,5982	-28184,9891	-26497,9563	6861,3007	-1554,0124	-23658,1660	-39872,5029	-23899,0381	-34060,8808	-28157,4043	647,9695	159,1042	-1109,5670	1650,6012	7672,0686	-4693,9977	12872,8969	11496,8524	14333,4807	15241,8076	2704,8645	26266,0865	19448,1951	18751,0432	-3865,1614	  0,1614	  0,0586
  0,4890	  4,0000	 69,3590	1612,9536	1966,1965	8857,0303	1886,7988	8943,3966	5176,7573	432,8292	-28098,8943	-2249,8123	-13673,6626	-41923,5592	-23372,8844	-37527,1829	-33109,2993	262,3356	520,3133	1228,8331	-11254,8072	4235,7778	3422,6038	8880,6843	11018,7826	8432,2322	67641,6420	23870,4793	13556,4728	12860,1851	6506,4571	-8314,5820	  0,1614	  0,0586
  0,5180	  4,0000	276,2410	 -6,2443	-840,1390	-797,2115	-9221,3495	-266,8453	-14199,9001	-9712,9254	-18390,5341	4766,3366	-41931,6923	-35930,1423	-35055,2560	-41178,3617	-30797,6992	-220,0912	-1670,3022	658,9098	2179,2319	4496,7441	8345,4839	-4485,0122	3049,2690	-20244,9257	26003,0873	-1353,1384	1078,3419	5542,0251	-2021,8639	2120,3226	  0,1629	  0,0586
  0,5470	  4,0000	125,5671	-1805,2880	1574,5657	6147,5134	-5646,5137	-6608,1538	-22299,5435	-10692,6649	-4070,9542	-19717,0060	-14723,2416	-108731,9354	-26046,8312	-30119,8160	-51304,3417	371,9141	241,3365	1680,1863	11716,5246	4853,7726	5575,3147	4101,7052	8467,9659	16866,9767	16025,3671	17740,2202	70857,7085	5872,0485	668,9738	20485,3529	  0,1638	  0,0586
  0,5750	  3,0000	318,0489	-547,0295	-1633,2166	5911,9096	3252,2061	4672,9247	5820,8273	12704,5753	15088,6583	30186,4030	19801,7950	27837,4429	28952,7992	27389,7814	27408,7505	115,1544	-556,4970	208,8707	-2809,1339	-9368,9048	2104,7685	-4291,8575	1175,4411	-960,9691	2652,6491	7414,8968	-5517,4549	9038,7793	596,9193	3042,1301	  0,1948	  0,0659
  0,6040	  3,0000	  0,3831	-805,1496	6864,3140	4233,3249	11548,1097	6866,6566	7619,6588	18912,3455	12089,8967	22730,0754	18208,3306	18734,0368	23324,4664	27649,0083	30438,3330	901,3280	-1393,2919	-3814,9465	-3744,3212	-6798,0966	2944,6099	-3887,2630	-4996,7970	5243,5463	690,2240	1094,2269	-57,4908	8225,1781	6577,8110	-1051,5146	  0,1948	  0,0732
  0,6330	  3,0000	-375,8374	-303,1175	-1546,6231	-494,4238	3671,6336	-6928,0662	11079,0357	23727,3724	44113,2885	29361,5140	17504,7044	19585,0907	21629,7495	28425,5327	24691,9449	495,0140	-1141,6200	-1636,6527	-3632,4756	-1672,8527	-25095,4099	-627,4869	2178,2348	-11468,6513	8609,8095	8746,8327	890,0534	6198,7715	-667,2598	-252,7288	  0,1939	  0,0732
  0,6620	  3,0000	142,6590	-46,0435	 68,4577	1126,2180	6498,1439	5908,4878	15634,0072	10874,6412	24803,2546	17246,3858	23454,6227	15942,4173	25630,2438	28100,9785	29924,4197	643,5776	-1713,3750	-1613,6603	-2811,9289	-7835,7800	-22350,1067	-5004,6309	-1169,9022	5059,6567	1323,1600	9899,4038	-462,0074	9374,9512	-3276,0979	-1711,9553	  0,1916	  0,0732
  0,6900	  2,0000	 63,2608	  2,2930	-803,3015	-564,9085	-982,0557	2649,1685	5494,2315	5236,1641	-3467,8401	2910,0159	-4489,1040	-7261,2402	-9366,9354	-8408,0882	-10117,7064	-162,3257	-290,4818	856,2191	1855,9354	-2288,6504	-2655,8334	2566,3265	2075,5005	8253,0696	3565,0432	4199,3033	1451,9811	3726,4635	1561,7682	 90,5163	  0,1436	  0,0806
  0,7190	  2,0000	104,5104	-51,8463	625,1565	573,8246	-129,9948	434,9756	35821,1841	-5203,3465	-8055,2907	953,8876	-7252,7877	-8124,5067	-12186,0950	-8563,7501	-10680,5218	146,4973	-322,0354	-321,3110	2036,6570	-2287,7951	-2400,8636	-1985,1433	-5036,2100	957,5485	4765,7831	5015,1382	1277,4395	277,8731	1056,5018	1644,1807	  0,1438	  0,0806
  0,7480	  2,0000	-38,0460	-19,6741	609,8799	2040,7712	-3311,1240	1458,8050	-3768,0729	-15578,3964	-6318,3615	2403,3524	-5326,0722	-8796,0287	-10791,8238	-8357,2679	-11663,5415	-190,7669	-232,7444	-351,4073	11421,7794	-15431,6009	-1803,4624	-8326,8860	6060,2421	11202,8983	6176,0371	6327,0841	605,9831	6374,9814	 15,4774	1081,4683	  0,1438	  0,0806
  0,7770	  2,0000	-220,7830	-552,4052	-168,5047	568,3719	-1805,6437	3669,2021	1942,9639	2226,2876	-13038,5778	704,1017	-4943,8202	-8067,8629	-9290,4405	-8101,2709	-10876,3631	-17,8511	-397,3832	1133,2101	1238,0096	-1116,1171	-3717,8019	5478,0267	4501,5112	17660,2400	5447,9402	6901,2007	2007,5485	5422,5649	-102,5881	-452,9113	  0,1430	  0,0806
  0,8050	  1,0000	-701,8495	 96,8715	 -5,7821	-8684,7484	121,7383	-589,3590	978,8718	-3288,2658	6153,1344	15525,4218	20828,2179	13757,5964	12523,4137	17720,7459	18566,6522	-526,4016	-966,0044	-635,3105	890,7301	-2744,9004	-3553,6495	-6479,4447	-19928,9172	-6318,2087	-6093,8499	11258,1482	1563,0233	-3660,2618	-7724,8249	5859,3803	  0,1225	  0,0513
  0,8340	  1,0000	324,8377	678,0884	283,7269	759,2180	363,9191	-3248,5145	3627,0059	10007,6036	5001,5853	9641,1901	11665,1316	11659,9486	14451,9301	18949,0935	15547,7077	 -3,3462	-1070,2478	-489,4365	2271,8357	-3120,2695	-14331,5073	-1542,1866	24650,8612	-7555,2530	-7292,9034	-351,5838	-1347,9461	116,9544	-1759,7845	-2624,3325	  0,1222	  0,0513
  0,8630	  1,0000	-355,6240	-155,2038	-427,6077	 32,3100	-1110,8614	9739,9048	4620,0511	4261,8652	9331,9217	-869,9000	13053,2113	13918,9943	23643,1861	19718,7998	15817,0358	250,6032	-361,9823	152,3381	-1608,8481	-2830,1769	8582,2693	-971,1439	-6909,7127	-5452,1411	104043,5432	-11413,3943	-3949,5969	558,4025	854,9271	-3899,4178	  0,1225	  0,0586
  0,8920	  1,0000	509,4531	-107,9179	-258,7283	-107,5301	142,5304	4867,1736	4681,8560	6756,8658	10382,6456	24262,1598	10394,8182	14217,1629	15479,5226	21205,9336	17239,2682	-365,9950	-235,6863	664,0163	-2212,6201	-2115,8706	-803,2174	412,2427	3483,5654	-9644,4344	-32012,6320	-23302,5199	-2496,6466	-5635,0705	-5576,4760	6312,6378	  0,1228	  0,0586
  0,9200	  0,0000	-36,7329	-43,9714	400,2213	5787,8717	-437,7202	80285,8821	-333,7693	26757,0424	6346,9938	4022,0137	-8842,2490	-13302,2335	-16628,2634	-13769,7916	-16540,1148	-65,5958	-150,9838	-217,2076	1383,8877	-1404,4832	-8259,2012	-4646,1469	39001,8571	-23606,6249	5829,5858	2576,4656	9213,5911	13294,7603	-1941,7963	1017,5438	  0,0782	  0,0659
  0,9490	  0,0000	  3,3380	614,2843	370,9046	-977,0919	249,4384	992,1182	2307,8458	4730,0441	8891,0958	12935,8849	-9154,8419	-15945,7192	-17904,0505	-13519,8713	-15161,9483	-102,5185	-236,2325	-86,5093	-398,7826	-1087,8072	-1703,5019	-2212,5388	-2128,5547	-6235,8301	14853,9738	7250,4689	7063,8464	4187,5162	1165,2556	979,9878	  0,0785	  0,0659
  0,9780	  0,0000	-289,1788	 88,8731	-1723,7886	443,3764	1317,3765	1096,9408	-3887,2223	6039,3025	13674,3848	8596,7539	42603,5692	-9314,5210	-7305,4120	-14705,0901	-17753,7322	137,0735	-540,6574	2335,7175	1522,8226	-810,2931	-1017,9661	-9853,4836	1153,3712	-96,6756	10786,7205	29411,9143	7111,5010	17225,8269	451,5233	199,0143	  0,0782	  0,0732
  1,0070	  0,0000	-37,5297	-28,2210	-415,6273	-660,7666	 46,6231	853,6989	-6762,5368	-9155,3210	-15480,3349	-6214,7077	-13314,3574	-10378,3366	-52020,0472	-18443,5357	-14123,9212	-101,8567	-217,5449	-693,7355	734,0541	-1385,4521	-2493,0071	-8979,2608	-14868,4996	-25473,7092	14457,7346	1413,9664	4421,4099	15356,5227	1554,4761	3946,1272	  0,0782	  0,0659
  1,0350	  5,0000	432,5583	1651,7068	-3809,5486	-2738,7215	-5806,2676	-27793,4182	19123,6295	12990,1758	22150,6796	24211,4963	22213,8662	31501,9823	36588,7290	41730,4246	40238,8092	-37,9557	 63,7704	-3537,1776	-6292,1842	-11731,6167	184365,3457	4258,1097	103,4758	7731,0610	14742,0207	42449,7614	3363,7712	7431,9730	1734,4356	-3225,4557	  0,3334	  0,0732
  1,0640	  5,0000	 37,3361	-4270,5150	-2700,8743	12076,4454	13731,0882	6319,6617	14119,7960	13086,5287	25652,1394	27841,8641	27820,1076	31175,8269	38884,8026	34731,6521	41789,0935	523,8041	-3369,1095	-123,8601	-12107,2471	7158,7058	21734,5648	12310,4186	2250,0337	3716,1938	11959,7415	6487,4824	4698,4005	4382,5073	-872,9608	4049,0131	  0,3340	  0,0659
  1,0930	  5,0000	269,4795	1254,8065	19194,8212	4616,2878	3446,8944	14433,3540	3768,8169	18461,1127	20198,7975	18574,7928	30880,1368	40366,1105	37745,2246	40140,3641	40009,0026	211,8099	-11174,8536	-8994,9472	9996,8773	-7269,0172	-20590,0272	-28853,1169	-2607,2828	9223,4714	10858,8787	12845,2556	4718,1246	17290,9557	1602,7128	-2447,4186	  0,3343	  0,0659
  1,1220	  5,0000	 71,9091	-8136,9165	-1809,8699	2812,7251	3340,0309	-16786,6148	3630,7381	65282,8360	14518,6940	20436,9566	27430,3349	33153,6095	42389,0521	37596,3958	41464,5682	-339,8737	-245,2086	-759,5757	-2943,6220	19909,6919	-4058,5514	-26716,7902	-9625,0026	9719,2124	3704,3769	13060,9091	5003,8553	11023,8741	3398,8229	1749,7113	  0,3349	  0,0732
  1,1500	  4,0000	-237,1976	540,7772	921,0173	3996,5514	-8363,8702	-5606,9402	6374,7892	-17661,2766	-29374,8556	-18707,4516	-22221,6821	-22883,9456	-24326,5389	-42205,7201	-32508,1020	390,4489	 96,0132	998,5962	7053,8594	-1549,1034	5806,7538	9931,4168	21389,3967	32728,0508	31357,2740	16985,0575	11134,0019	18955,6755	5657,3297	-21909,1096	  0,1626	  0,0586
  1,1790	  4,0000	492,9826	1151,9825	1391,2770	-1671,4649	-11318,3227	-6085,3151	-2359,7469	-2919,0057	-11623,6500	-6801,9469	-15523,7385	-22322,0968	-29757,0470	-32435,5088	-35158,2503	459,7219	371,6875	970,1871	4903,2554	5799,4853	20658,0459	12063,0222	21836,6541	6130,4898	24742,9348	30794,0846	19516,4757	6110,5273	4990,4188	-231,9862	  0,1620	  0,0586
  1,2080	  4,0000	-670,8361	 83,6326	916,8250	-4939,2882	-3755,7438	11928,8827	-7245,3329	-2748,7778	-18841,2839	 71,6787	-7638,5562	-29769,2488	-33471,8966	-44847,4987	-43280,0751	952,8835	659,0290	-69,8860	2009,0186	1894,8109	38417,5514	7150,3796	22847,7906	22601,2405	-23419,4450	31501,8162	15451,2623	8776,7365	20225,6908	-1740,9073	  0,1626	  0,0586
  1,2370	  4,0000	101,4358	-991,2316	2108,7189	-698,5575	2523,3330	6302,2634	-13427,2296	-33712,5481	-4619,9895	-31798,1965	-7526,0842	-40407,3815	-39553,5643	-32277,5620	-37548,8503	142,4613	1215,5050	1224,2061	18680,2967	2411,0965	8126,3765	1373,4708	12055,8385	11065,4943	-3932,4397	18857,1071	13635,5234	18805,8114	6213,6337	5000,9611	  0,1620	  0,0586
  1,2650	  3,0000	-2056,7474	-1785,6023	 -3,5036	1752,8565	5495,4693	8284,6634	6333,5776	8991,7843	27268,2286	15750,2049	15619,3774	27536,7012	19811,7555	20964,5901	26354,1302	-568,7635	1196,5353	-3558,9399	-1873,0409	4427,0476	-5383,6074	-1570,7301	-2381,2458	14117,2713	13645,2919	4639,0961	-2906,5094	8202,5413	4637,9975	1858,3358	  0,1901	  0,0732
  1,2940	  3,0000	1032,5922	-197,3710	-243,1707	-7947,6866	7196,7073	7508,7187	25410,0024	7641,0367	10306,1808	25370,4752	16959,6279	21147,1719	25641,2449	28892,8454	33076,5774	-147,4979	679,6908	-1623,3783	3759,6726	-11327,8570	-6947,4074	-10125,8064	-3068,2749	3357,7486	-5367,6874	6926,6232	320,8287	7655,0099	3553,3807	6688,9092	  0,1884	  0,0659
  1,3230	  3,0000	719,7442	-50,6449	-695,9467	4554,4487	-4115,5470	38015,1177	14876,9841	8090,4654	8646,9463	20454,8995	20497,8909	16193,8104	22867,9680	31809,1341	25774,7729	342,9917	3384,6094	-119,7151	-6494,3797	-10141,5377	209,5694	-19225,5709	-3449,9990	6505,5745	-3532,4710	26985,5868	2213,4411	1775,1280	3767,3070	1116,7194	  0,1884	  0,0659
  1,3520	  3,0000	860,3412	-844,3018	-552,8202	1819,2685	8162,2916	4539,2405	19158,8479	9914,8518	13109,8070	17578,1369	18685,2434	26431,3642	29250,2247	26109,5260	24932,8374	290,2112	-240,6573	562,7568	-1650,0709	-7125,1043	-11754,2705	-7000,7725	-4527,5007	4124,6225	11246,0935	-662,0574	-4745,0917	2927,0172	-1487,7579	981,9402	  0,1887	  0,0659
  1,3800	  2,0000	-77,0668	918,1639	-535,4298	-2179,2239	1891,7585	1793,3271	-4560,6555	12339,0763	-7892,9671	-92,5625	-3388,6328	-8103,3034	-13041,9489	-8195,2403	-12161,9212	-52,0164	-407,4839	641,9562	1504,7188	-1292,4810	-2096,3256	5211,2613	11447,6874	-22810,1307	9872,7741	5293,9429	1300,7554	4814,7912	632,3405	700,0242	  0,1438	  0,0806
  1,4090	  2,0000	-403,1601	-205,1504	1664,6051	-838,5721	-1430,0889	2547,7750	12218,8482	6045,8418	-16175,4407	4478,5329	-6225,5025	-8623,0026	-11322,5990	-9300,8738	-10971,2141	-196,7813	329,2526	998,5262	1315,3230	-1323,5733	-3962,9725	6943,4350	4322,8867	-1863,0825	7568,6635	6227,3563	991,3125	3030,6141	-457,8413	-368,1051	  0,1441	  0,0806
  1,4380	  2,0000	-234,3859	407,1829	483,1305	-383,8833	-4972,2842	1923,0295	7550,9244	7229,4247	-7275,4818	1456,2116	-6322,3520	-7065,8622	-9613,2255	-8136,6317	-11263,7522	-764,4065	-723,2548	193,4976	1028,3361	846,4038	-1893,6037	6430,8012	5648,0550	1628,9472	7121,7419	7676,2548	2798,1352	5773,9509	513,2262	-303,6270	  0,1436	  0,0806
  1,4670	  2,0000	-203,4597	310,0476	-223,4139	254,9301	-523,8545	3015,6221	15742,5675	-12706,4465	-16684,3054	-653,0773	-6175,8971	-7289,1678	-13744,0710	-9080,9966	-12232,2812	-189,0991	-85,5416	-361,6039	856,2824	-1998,9707	-195,1289	15820,3626	11362,0752	-3617,7071	7301,9197	4272,2994	2124,6492	5312,6173	449,4711	1620,3902	  0,1438	  0,0806
  1,4950	  1,0000	 28,5970	239,3870	2528,8353	1678,0298	1108,0211	-4714,8628	3128,5133	-648,2463	30992,8906	1467,0787	9727,4737	12042,1124	12698,3382	16798,8231	14593,2583	-183,9895	-790,3122	455,2851	-602,9025	-1328,9967	15402,7595	-1001,1518	8810,8973	-10150,2767	7612,0325	-331,5718	-10172,7081	-1125,7534	-3076,9627	-1937,0561	  0,1230	  0,0586
  1,5240	  1,0000	-310,5301	  3,2424	348,2711	1223,4453	-6153,7386	4000,8699	1881,9407	1797,6770	5787,5405	-5331,7056	9635,2207	16350,9064	20305,3259	15523,3792	20191,2417	670,8313	-277,1218	204,5420	-799,1733	2968,9061	1596,8925	-5334,4495	-5136,4414	-10610,0462	-18778,2076	2308,0713	3706,3619	1551,0660	-350,6869	-2298,5281	  0,1225	  0,0586
  1,5530	  1,0000	-37,6331	-911,4494	-877,2276	1621,9402	-1336,3949	8666,3400	-8273,7485	-3540,9700	8305,5763	31442,5403	8535,1840	16661,9030	15608,7578	14579,6658	20319,2926	333,6780	-285,6138	758,6629	-547,1940	-2494,8434	-554,8410	397,2024	-15970,3612	-4814,4900	-32462,1667	-11021,3312	-3047,5158	1045,4146	-2385,6490	2740,1184	  0,1233	  0,0586
  1,5820	  1,0000	570,8338	928,7041	345,6364	2263,3364	2552,0118	2431,1526	4071,4332	8535,2720	6555,2223	7347,1561	9884,4446	11322,4136	13279,2169	20757,5355	13425,7337	-549,9978	701,2845	240,8929	-142,7867	-1992,9826	-2982,9120	-3900,4429	839,2326	-8230,8897	-10873,3403	-12524,5130	-11584,5850	-2344,1884	-94,7956	727,9138	  0,1225	  0,0586
  1,6100	  0,0000	-22,8161	-162,3116	297,2499	3259,3077	-468,6709	1117,1987	3903,8960	4744,5223	-3865,7494	314,0530	-10368,9604	-8176,0423	-12874,7982	-15255,5980	-13958,4136	-79,4388	-121,8403	-175,5650	-8557,0032	-1088,5739	-5660,6211	-4724,7499	-2656,2112	-8033,4123	14359,1823	8315,3939	7354,0963	5767,1124	-151,1415	4840,1102	  0,0785	  0,0732
  1,6390	  0,0000	  7,3306	-135,3832	825,4810	-1191,6045	-2130,0562	 11,8049	1265,6553	6697,4048	4597,2446	21434,2333	6569,9191	-11044,3172	-18468,2633	-11687,3009	-13409,7692	-85,8600	-157,6887	-475,9961	1823,1254	-1441,2288	-1920,3325	-3522,7701	2250,5316	-6741,7970	26000,5591	22241,6416	1990,7629	-843,7519	1735,9632	1700,8904	  0,0782	  0,0732
  1,6680	  0,0000	129,5848	-157,4110	482,8561	-2684,5280	-112,8974	1409,2583	-4659,2501	3342,2739	-1563,2635	-2781,1113	-3343,8243	-10989,0701	-24571,8498	-13675,7821	-18908,4482	-59,7576	-251,9476	 57,2392	1449,4874	-1499,7317	-2405,9651	-10611,4512	-4637,6660	-5272,6264	10204,4677	10585,4256	7018,0941	5145,6840	-669,0041	3760,5641	  0,0788	  0,0732
  1,6970	  0,0000	 86,0703	161,1120	325,1624	-559,4131	-618,9892	3996,7217	5236,7832	9255,7041	4673,1887	8478,4849	-7801,0172	-16149,5250	-11259,7211	-11040,6580	-12856,0009	866,9615	-236,5542	-701,7917	291,0591	-1406,4403	-3151,2110	-3674,0753	8725,8568	-16750,1147	16548,6647	10498,9086	2153,6791	8808,3250	665,1945	1051,4884	  0,0791	  0,0659
  1,7250	  5,0000	592,5963	110,5156	5186,1049	2547,5768	-12982,9834	-26915,3715	15936,8237	21659,9240	21994,5163	17246,5184	31378,0243	33347,8731	37363,8910	38323,6604	39773,4347	541,4447	-1850,9749	-13577,7124	-6399,6778	  5,0619	49659,4155	2952,3241	-5624,4447	16695,7394	5949,5564	21732,1327	5373,6462	18330,7599	-1029,5911	-722,4808	  0,3343	  0,0659
  1,7540	  5,0000	-7962,3222	-2520,3870	6197,1063	6086,2188	23055,8195	10313,8294	13039,0780	14671,0765	18289,9048	21236,3360	18952,7160	32112,1935	46443,5911	35956,6210	36586,4861	-2691,4506	-439,4606	-12761,7915	-875,3779	-9390,1826	2362,4438	3456,1765	-1877,7883	9684,3053	5032,4249	18207,5500	-2928,7211	15197,3092	5510,5393	-595,4969	  0,3334	  0,0732
  1,7830	  5,0000	105,3591	968,6599	-600,5948	3531,0238	24978,7947	12736,0706	-6365,5802	14419,0932	17657,5794	22841,1205	28222,6587	34681,8347	38333,3477	39377,0551	39174,0038	796,7907	-544,7669	2082,9529	-3850,7846	-17016,3246	-12207,1853	30382,7415	-367,6409	15817,5674	7756,7152	4204,3946	-2240,9193	8345,4021	-1142,7318	-2869,2624	  0,3334	  0,0659
  1,8120	  5,0000	551,6798	2387,7373	-708,7025	4937,1338	8901,5083	20290,1985	15379,7635	20065,6647	15004,3506	45658,4805	33301,0064	29980,5149	32200,7441	36777,1424	41186,8743	-285,4290	-2722,3046	-569,7061	-2819,8792	-5633,9828	-4421,5579	11114,9165	-3350,4720	7038,5858	10062,0290	15815,7978	-4536,7111	14818,0641	-870,2622	4657,3011	  0,3334	  0,0732
  1,8400	  4,0000	1394,3130	437,0755	808,1294	-1252,2648	3469,1258	-6348,0765	-11260,4336	264,6951	-21334,7710	-42457,7660	-26371,9738	-19184,5369	-25614,5875	-32176,3329	-34167,1706	519,1645	397,4453	1229,0524	2153,4630	3058,2830	3593,4348	17217,2287	86453,2823	19644,6157	18037,2402	15871,8347	16324,3749	7704,5854	10147,4387	-5670,2464	  0,1591	  0,0586
  1,8690	  4,0000	 69,8336	463,7201	-1337,9745	4488,7578	3468,5993	-5383,3527	-8411,2314	-19501,4430	-378,6368	-17887,9826	-27952,9370	-15949,0647	-22817,3251	-29382,7759	-46172,1696	412,0058	263,6503	2525,9633	786,8658	3095,5549	677,9154	8877,7119	-682,6850	37588,9758	-9746,3222	21426,8986	26521,9695	-1801,0086	3142,9574	-11007,7620	  0,1585	  0,0586
  1,8980	  4,0000	290,3916	-554,9725	534,0444	-18016,5462	-4471,5813	5677,1552	43245,4635	-13954,5190	-12360,3837	-35898,8336	5358,2406	-18314,4015	-22925,4532	-33286,4692	-29294,4535	173,1446	508,3284	1477,4446	-23599,1745	-4465,7190	-8532,3749	-8511,6739	3684,7055	24199,5761	17327,8938	28570,4455	14782,3822	8617,1211	15604,2238	4648,2231	  0,1562	  0,0586
  1,9270	  4,0000	329,0358	394,5065	449,7686	1640,2436	56519,9848	1883,0131	-3498,9339	-17545,6401	-20335,0282	-25417,0521	-22327,4774	-22185,0329	-22815,8320	-35970,2767	-46471,9355	-566,5247	367,4779	-611,6861	3383,3536	16565,2988	7080,4642	3730,8797	15844,7112	4774,9076	5636,2877	21631,5552	10157,4756	16462,2275	13059,6174	13426,8486	  0,1553	  0,0586
  1,9550	  3,0000	590,6432	-568,0632	-1010,8268	690,4389	-2095,1198	4670,9782	14487,1571	7902,7079	12445,2415	13593,1216	20337,7867	20898,3186	25614,9996	24707,4572	24090,7614	186,9609	-331,6359	-412,8750	-6109,0361	-5833,2207	-2314,0950	-3785,9853	-2641,9708	-211,0713	5488,6096	7738,7346	894,8162	3305,6335	6664,0867	3713,3902	  0,1857	  0,0659
  1,9840	  3,0000	661,4261	-559,2564	463,7364	661,9647	-934,4407	13496,7430	13753,1833	12610,0512	15114,0258	14807,7551	24848,1724	23729,2461	31753,1313	26116,9970	22288,0510	576,4952	-350,0527	690,0179	-2351,5732	-5418,3844	-4924,5078	-12170,3388	-3869,4912	-1708,1598	4920,4582	1804,1878	4352,6080	6958,5453	-809,9980	-1518,3761	  0,1884	  0,0659
  2,0130	  3,0000	263,0858	1107,6477	643,9539	439,5655	-11153,3650	-9577,2022	4533,4679	10225,9222	12745,2711	14107,1689	21332,5096	20219,1580	22482,8603	24884,1927	25642,8991	497,3044	2915,5741	3073,4295	-2089,9518	1341,1518	-6109,1812	3258,7372	-1265,9582	-4081,1294	8670,2850	-2103,5785	3202,2689	4597,5073	-225,5432	-816,6695	  0,1931	  0,0659
  2,0420	  3,0000	282,1871	-756,7604	785,7561	746,0634	19483,7493	8271,4013	7583,8565	12688,1359	11367,6884	11940,5521	21571,4433	19179,3963	23547,5039	26326,5382	25326,4000	-325,6504	-383,3663	3001,9001	-3955,9886	2955,8105	-826,3535	-4190,8249	-744,1061	1247,1341	-1705,6562	20611,9901	6435,3471	1731,7068	373,6350	359,9020	  0,1957	  0,0659
  2,0700	  2,0000	 82,4018	-2229,2823	261,3081	510,3828	-1896,2098	1207,1500	22188,2977	-10719,9666	-18738,0334	2332,8188	-3926,2372	-7327,5008	-10953,1277	-10145,2796	-11458,0781	-235,1443	1259,3126	-586,6985	2619,7724	-1668,3538	-2169,4971	15415,1367	27183,0188	-13703,9685	10665,3814	7097,4373	2904,0851	3263,1647	183,7433	872,5615	  0,1453	  0,0806
  2,0990	  2,0000	 76,5720	 41,0538	-501,5585	-471,9881	-1171,1813	1106,3327	8906,0888	-5530,9052	-10752,4739	-1180,4188	-9707,6100	-7520,3623	-9876,6270	-9324,8013	-10132,2865	-189,3704	-287,6086	-480,6152	1284,1364	-1776,2106	-1738,5400	2167,1519	-5812,4863	8956,3591	7549,7617	3743,8098	3391,1099	4719,8529	1537,6381	1073,2352	  0,1444	  0,0806
  2,1280	  2,0000	104,8434	155,5671	-2176,3352	1321,3929	-3272,1729	111,1495	-512,0132	-18074,3159	-12699,2571	 61,1749	-6580,8630	-8068,4331	-12116,0689	-7636,4753	-12393,5641	150,7222	-725,9763	5893,6097	712,9184	-1249,5619	-3303,8892	-4061,7022	-7123,9442	-919,8210	9052,0335	5353,7102	2598,1205	1196,8800	508,1624	-460,7588	  0,1436	  0,0806
  2,1570	  2,0000	-36,5329	572,1703	416,7744	-1504,8782	-1356,9906	2030,6508	37824,7634	9894,2887	-9651,9122	5013,2812	-5525,3855	-8972,2325	-11185,9296	-10482,7205	-11253,3461	-196,3478	-518,0175	-208,5721	1098,1119	-1932,3345	-1905,5904	-41590,1515	5480,5740	-5611,1957	6427,1970	5584,9956	1869,5203	5909,4453	1233,9013	729,9146	  0,1436	  0,0806
  2,1850	  1,0000	122,5309	-110,0696	-517,5016	404,3758	2905,0218	3552,8872	7314,9052	11463,8455	15975,9930	6924,9297	10023,0883	12289,5151	13120,9719	15769,6298	14768,3412	214,2903	-532,9037	1634,2308	-934,2715	-1775,8223	1926,5689	-8238,6229	-4470,1982	-13406,2764	-5610,7853	221,0859	-3851,6590	-5835,5579	-4716,4715	1490,8110	  0,1230	  0,0586
  2,2140	  1,0000	-2223,9719	-628,2679	561,9900	-49,1658	-1366,0775	1298,4136	2937,1188	9640,0248	7101,3802	13774,2906	9706,7021	16894,2764	19452,4310	14459,8595	14495,9058	-1422,6845	687,8478	 52,8496	-1855,8752	-1765,8874	-4866,7464	-3768,5270	-7966,3482	-4067,3249	-4292,8455	-4604,3411	-4155,9752	-4294,0173	-1288,3793	-1470,3486	  0,1228	  0,0513
  2,2430	  1,0000	-402,7184	-380,7986	2902,1948	699,2706	2755,9983	10813,5486	4823,6022	8633,4427	7637,2187	15099,4037	19303,4004	10215,1813	13439,0139	11897,3023	20674,4321	204,5802	-583,8732	-1574,8743	3767,4193	-1405,0475	-38284,9063	-1394,6181	-1155,3693	-3226,6980	-972,9783	4800,4547	-5700,4937	-6408,8189	-2481,9545	-1421,9996	  0,1225	  0,0586
  2,2720	  1,0000	-124,2019	210,3724	232,0199	9761,9178	-5540,9391	-2473,6094	2537,4680	-3445,7016	6689,4803	10470,7195	-13804,6424	14476,4105	19316,3751	13214,4738	17083,3494	-110,1072	-260,9764	901,5387	-4554,3475	1495,3140	-1489,6318	-1585,1343	-6246,6026	-14269,5347	1836,8995	-135253,9832	-5847,0658	-4638,2974	-7368,3092	1660,9390	  0,1225	  0,0513
  2,3000	  0,0000	 -5,4950	 62,9137	162,9835	263,6587	-1280,4358	1375,6149	1526,9805	10188,7816	1820,9257	-10477,5140	-7066,0773	-12312,0334	-17138,1169	-16386,8396	-14315,0775	-107,2431	-194,0819	-219,7619	1584,7912	-602,2353	-2758,3438	-4049,3207	-13298,7854	-6113,9456	20899,8914	8861,0945	7358,1368	3009,2782	951,7478	981,9657	  0,0776	  0,0659
  2,3290	  0,0000	 22,6769	-85,3291	384,0599	-2246,2566	-219,9781	3527,9643	2315,8077	-3325,6701	9720,5449	-13967,8226	-7183,8461	-23250,9041	-26456,7403	-14104,9285	-15573,5620	-70,9182	-242,1590	-234,6231	1632,8694	-1226,1672	-3094,1215	-4241,4711	-4105,8544	-8324,9210	-248,6242	15082,5975	-3058,1797	15961,3733	2836,9644	376,2547	  0,0785	  0,0732
  2,3580	  0,0000	 13,2368	 27,3045	294,3053	-963,7973	-766,9353	3275,4436	-381,5163	3520,4753	-22541,6656	14100,6146	-9128,9212	-7546,9472	-28436,0079	-11901,4236	-15058,9930	-106,9057	-183,7252	255,5455	-894,9079	-1699,6285	-5026,9448	-4226,7659	-4593,4173	2065,5068	15479,4934	7667,7835	4064,5411	9555,2535	857,8434	-1527,3483	  0,0791	  0,0732
  2,3870	  0,0000	 35,2168	213,2910	514,1508	-193,3225	-916,8441	-1091,1008	-6589,6678	7241,6897	5147,7643	6666,8118	-14166,4952	-15415,6384	-9502,5929	-11584,2909	-19293,3605	-107,0693	-158,3363	-15,2743	-3321,4570	-1661,6608	-5182,5273	-7421,9129	-3279,5425	-17985,2205	12799,0440	7011,7555	6863,3319	13575,0484	1221,0298	-1384,8782	  0,0785	  0,0732
  2,4150	  5,0000	 -8,7593	-594,1857	564,2068	4031,8967	-3507,9929	22486,6640	18593,8011	67009,5103	18685,1777	18948,4278	26571,9990	39289,3717	30703,1882	41250,1394	40091,4674	784,1692	-316,5299	1580,8211	-5125,1051	-6676,7108	7184,6040	16266,3628	48717,2491	-706,5971	9426,2334	10069,0861	1468,4693	8730,6259	3879,8369	-3801,6903	  0,3305	  0,0659
  2,4440	  5,0000	529,6717	-468,1383	-5458,4090	178,2731	4289,2438	13998,0275	12719,0243	12317,2624	12307,2125	25256,0503	28585,6848	34588,6360	43543,1301	35879,9428	36434,5135	190,6297	-525,1135	-24,7924	-2884,2081	-7778,6851	-7049,8742	16194,7372	-4853,0966	8746,2775	14024,5325	18635,0246	-458,2826	5695,7648	-3520,0929	403,3534	  0,3313	  0,0659
  2,4730	  5,0000	270,8367	380,0262	-2099,2670	-7767,9199	14218,8243	71169,9936	20624,6042	11260,0641	16672,4770	19495,2282	38262,0817	33583,4015	35731,9155	33884,5059	34620,2071	111,8195	1252,1932	793,8365	-6616,9724	2334,0052	-8797,7485	-4839,1305	16478,6946	10949,4598	6964,7563	23349,1782	-7153,6745	15094,7737	3419,3720	826,2924	  0,3328	  0,0659
  2,5020	  5,0000	821,2766	-655,0582	-669,1567	243,9833	-12867,7512	3980,4331	17131,0063	19598,8920	28724,5026	26736,0095	17748,1306	31517,2174	32307,0916	46532,6607	36439,8981	286,7722	1411,1972	2633,3336	-3017,2242	-16194,2709	-10888,7790	4434,1586	-2176,9846	20312,1909	6614,0068	31849,6531	4202,3436	9679,6401	-3490,4887	-4426,3359	  0,3340	  0,0659
  2,5300	  4,0000	129,2243	350,5066	-814,7371	2548,9158	-4377,2168	-7844,1042	-10925,2461	-6246,5436	-10721,1294	-115838,3523	-29727,9056	-25527,4219	-23850,1307	-33296,1237	-51751,6585	-459,1423	294,6380	 -7,6567	2285,4493	25268,0677	-371,8401	-6241,1586	41871,1977	-805,2190	34563,8995	36908,2894	18177,9939	4735,3904	9869,9666	-3266,9305	  0,1635	  0,0586
  2,5590	  4,0000	-344,1098	909,4885	-1362,1727	 76,9896	-6876,4399	9376,6897	-18667,5266	1793,2466	-2578,6816	-40202,7961	-30481,0785	-20556,1819	-21609,0993	-23662,2382	-39270,2104	-244,9944	531,8329	573,0398	3034,0592	7817,8337	-7968,5238	5559,2039	13782,7595	20121,7356	11687,3278	7553,7169	28214,3199	7390,9691	18837,0675	-8503,8962	  0,1620	  0,0586
  2,5880	  4,0000	122,1098	443,5978	-503,3144	2339,9983	-49226,7749	1039,0010	-22825,8214	-22684,7589	-13462,5275	58924,0533	-21738,1968	-70271,6957	-40366,5223	-32385,8642	-25535,5742	258,3900	113,0441	1358,4914	-424,8319	5043,8830	3994,4402	14104,3412	6341,8552	11461,4327	43655,4232	11714,4496	29527,0860	194,7639	5288,5486	-195,4648	  0,1600	  0,0586
  2,6170	  4,0000	1539,7147	401,9026	2089,9509	-5411,2341	-2089,6745	1655,7676	-10547,6619	10972,7174	-3597,5541	-13165,4646	-36108,1009	-58669,2217	-41869,1370	-34476,3593	-44273,7845	349,1797	1009,8725	-1096,9546	1436,2118	7147,4706	6196,5386	-928,8301	5837,9553	19978,0080	11630,5350	44896,8288	112058,6829	7298,6204	4315,9507	-7920,8836	  0,1594	  0,0586
  2,6450	  3,0000	251,2011	-358,9631	-444,5694	-452,9831	1866,3999	-1934,2640	8507,4654	13561,2887	5002,3578	19580,8976	20849,0737	21371,8151	30311,5308	27553,8242	30030,7852	 99,8672	-271,5662	3937,8802	-2433,4467	-4485,6437	-8026,9724	-8487,9814	-6636,3277	6785,6154	759,5349	-1714,3245	-3832,6826	8968,1255	2803,4828	5140,0410	  0,1893	  0,0659
  2,6740	  3,0000	461,4687	-435,0769	753,8714	5086,1370	1974,6982	7995,8711	9507,5920	10186,3915	18643,9557	23744,8260	24832,2566	20697,2023	24821,8913	25176,4696	28434,2001	-64,6056	-191,5517	1264,3231	-4776,2810	-8163,1716	3748,1560	-17440,4432	-3865,1975	-1660,4023	8019,4180	9671,6131	2136,6888	954,0834	589,6241	-497,7651	  0,1913	  0,0659
  2,7030	  3,0000	751,5413	-313,4557	-1742,4839	-6221,4536	3465,9202	25811,4055	8025,4777	21557,1114	12683,5373	26301,1540	26733,1172	24711,7818	27459,0480	32869,2087	29182,9199	-281,5494	-473,9460	-1686,8894	-4909,5707	-1879,2219	-10163,7285	3350,0104	-4686,4408	-3611,1648	16248,1712	7697,4464	3721,3099	-2750,2619	1628,0555	5250,8936	  0,1945	  0,0659
  2,7320	  3,0000	326,5737	-2346,9658	-689,1825	1000,9517	7355,5878	4763,8684	7816,7676	29390,9404	10874,7600	14389,3628	21640,6786	21747,6252	25676,0264	26006,1595	24780,4133	 68,0172	1763,2199	-693,3526	-1823,2208	686,0505	-7525,5008	2153,6269	-12816,3642	784,8600	5603,9205	8369,2086	5302,7321	341,7628	1138,8604	-18,1578	  0,1966	  0,0659
  2,7600	  2,0000	280,0484	-66,9085	376,4269	544,0589	-1272,4266	1810,8091	1380,1719	-11416,5555	-10644,8187	3184,0746	-4798,7966	-7183,0669	-12626,3758	-8474,6881	-11744,6625	-857,6689	-351,8312	-520,2337	1601,4398	-963,8869	-2519,3264	7715,4142	-5150,4511	-13591,7012	5934,2877	5742,9516	835,8114	3843,2307	-499,3641	599,7305	  0,1444	  0,0806
  2,7890	  2,0000	-321,1888	-244,7008	546,6653	2353,9107	-334,5232	4386,9519	-4052,0766	-9238,1542	-11023,9444	1539,9956	-5151,3698	-9298,5912	-12944,3043	-8523,6522	-10574,0789	177,0394	-192,3969	-524,9179	2270,4850	-2007,9432	-2145,4561	3011,4435	316,4701	1985,2174	5551,4916	4907,9680	106,5924	3456,8058	279,3173	-117,2087	  0,1433	  0,0806
  2,8180	  2,0000	-77,0089	-309,5466	927,8179	-2000,1926	3425,7128	1816,0201	-8293,0584	-6862,7872	-12379,7549	1613,4655	-6032,1290	-6723,6943	-9587,9698	-7450,1968	-10868,4260	410,4999	-249,6464	 11,8049	2313,7237	6203,1919	-3218,8176	15920,9603	4821,2612	7739,5211	6853,2679	4575,6856	2242,2545	6417,4778	891,8902	583,0638	  0,1430	  0,0879
  2,8470	  2,0000	2278,7633	-55,6903	1210,8358	1036,5808	376,5913	552,7089	4480,3546	 27,2692	-2898,5224	-42,2694	-5415,9303	-8169,9317	-10609,8469	-8950,0026	-10450,0764	-280,3696	-495,5564	-428,1375	1383,9085	-4837,5944	-5519,7975	4544,6264	85901,0816	-11903,0240	6262,6186	6780,2499	296,0514	6453,8653	1581,1525	457,5177	  0,1430	  0,0806
  2,8750	  1,0000	-33,7550	-52,9257	796,5842	2486,1802	1181,3730	2805,5741	4688,5885	1378,2773	4123,9302	8361,4137	9498,5838	9877,6234	11858,3247	14825,0557	15040,5606	-208,9927	-376,2118	914,5080	-450,0137	-468,5066	1591,5890	-5014,9631	-3645,2683	-21368,5674	1621,6994	-3109,5839	-6772,1452	133,3260	-4102,5246	-3636,0379	  0,1225	  0,0586
  2,9040	  1,0000	372,4813	-387,9951	297,1195	3203,8578	-2225,1170	6653,5709	-6575,5260	-3607,0908	5242,5358	-4696,8620	12030,4005	12996,9700	17103,3224	17915,0090	16012,7034	 -9,7706	-252,1607	168,4007	 82,6465	-1699,2206	-7321,1555	-4402,5579	-8322,9062	-4376,3036	-11087,7329	-1677,8856	850,6888	-384,8803	-3759,6812	2216,2923	  0,1225	  0,0586
  2,9330	  1,0000	139,3348	-381,7079	-774,2572	-3573,0107	1301,3521	3709,7130	2630,5884	7608,9582	13748,9807	11997,0035	10682,0930	15879,7833	11945,8031	13969,6063	15917,0357	547,0745	-445,4321	1247,2861	-1319,3880	-3230,6732	-3215,0841	-2496,3518	729,9550	637,2187	5634,4979	-3797,2880	-2042,5781	-964,5635	-2049,9375	-688,4430	  0,1225	  0,0586
  2,9620	  1,0000	-21,5544	-300,5632	265,1599	 73,4312	-92,6944	-643,5461	4910,3122	2442,2093	-8642,5807	10655,1629	21829,9354	25194,7256	18476,4469	12718,9716	15235,4674	-122,1967	-175,8906	 61,2113	-1185,0718	-2227,8579	-2898,9959	3985,7118	-2257,6899	-92005,9554	1872,9925	-13665,5658	-7165,9060	-8685,7918	-2532,0291	1143,9102	  0,1225	  0,0586
  2,9900	  0,0000	178,3398	 14,9088	292,4520	1053,0185	-745,9126	2842,4286	3890,6515	5427,4339	-5247,4409	10857,5151	-1023,2046	-11369,4003	-15585,4471	-11371,3130	-13969,1590	-198,0870	-126,2686	-31,7880	-1160,1612	-3583,5066	-4369,7140	-5630,1381	-3456,0999	-4130,8153	8795,3321	20489,9779	5458,6349	12357,7168	1641,4221	375,8693	  0,0814	  0,0732
  3,0190	  0,0000	-64,4394	-28,3323	700,3033	-72,6724	-756,0837	1866,1478	179,3963	3373,8242	4574,1484	11989,6115	-22048,1149	-13584,9912	-17414,3797	-13576,3389	-16651,1257	-26,5785	-107,4708	972,8195	1902,2564	-1260,2462	-2578,6176	-7702,9518	4667,8308	-6755,7868	2052,6670	5000,6709	6848,5608	7700,4434	-99,1848	1271,9591	  0,0785	  0,0732
  3,0480	  0,0000	-19,3436	-79,3426	444,8171	789,6350	-72,4165	4359,1982	6080,3167	-32607,7242	710,9116	-948,9839	-13828,6976	-12214,1861	-14642,4110	-17899,1376	-15636,0043	-107,7503	-190,3964	 12,6618	3085,0655	-2905,5435	-2144,3691	 29,2741	-14486,7203	-7742,1691	7557,2514	13398,1440	7395,0615	8127,2620	5374,1026	4145,7553	  0,0788	  0,0732
  3,0770	  0,0000	-73,1867	 13,3750	426,7646	2364,3669	-852,1850	2369,8504	838,8412	-5215,1779	5506,6560	-46038,9189	-6877,7175	-10596,3338	-17163,7173	-11719,4644	-17495,5310	-117,0910	-332,1409	-351,2660	2000,4677	-1562,1734	-1868,8965	-8299,0657	3310,4194	-26181,0365	11274,7747	12603,2964	3536,5743	12474,4801	1908,6136	505,2923	  0,0785	  0,0732
  3,1050	  5,0000	506,8641	7388,1439	-4404,1408	-9018,8583	5616,1283	15135,5541	16779,7020	16250,8036	36683,3131	19358,5694	26482,5124	33705,8169	34196,6628	34995,2262	46487,8777	217,6699	1384,6930	1919,4729	-9012,3276	-5307,5312	18444,8895	-5127,8196	-3561,8974	3397,3964	7727,4554	10355,5237	-743,4760	13200,4011	2530,9425	-472,7362	  0,3349	  0,0659
  3,1340	  5,0000	1142,1415	-329,4910	4656,1984	4783,5712	13925,0359	15746,7274	21634,0899	29974,1085	16040,0496	30806,0135	45600,9033	32491,3135	47200,7608	39738,6197	37015,4302	108,0350	978,8477	-1285,4040	-3490,8266	2219,3193	18089,7825	3031,9053	-30700,4813	6605,4856	1766,0783	22647,3047	-5192,2522	8609,1365	-2567,5685	1301,5147	  0,3343	  0,0732
  3,1630	  5,0000	476,0370	-1617,8625	-2449,8170	-407,3002	-11184,2120	28509,9712	11847,3181	14809,4107	39829,2229	24028,7279	25752,5965	36512,6674	33400,3539	40307,2144	37374,9985	144,0525	222,5947	9915,3396	-7313,0068	418,0802	30071,0280	9835,1204	3407,1027	12664,6352	9168,4992	19217,3222	-458,5695	15144,0007	430,3531	275,2076	  0,3360	  0,0732
  3,1920	  5,0000	459,7579	-2133,4737	1213,6823	5776,1425	-9503,8350	10765,0852	28061,2638	23953,3525	13759,7736	21521,1245	34620,0732	34951,5036	29372,0304	38097,6087	39997,9507	205,4924	3053,9986	-10314,4735	780,7943	2585,8527	13166,6128	-19150,5892	2150,7412	11030,8115	14434,8627	13501,5568	3772,8717	14701,8299	4052,4388	1225,9568	  0,3375	  0,0732
  3,2200	  4,0000	669,7800	648,7441	-834,9624	546,2519	-1093,5074	-6746,1595	-36030,4862	-201,7684	-31022,2909	-4306,0556	-33969,4823	-14136,9881	-29887,6845	-26494,7256	-39926,3540	296,2983	104,1690	379,1002	4483,8569	5948,8790	3428,3537	-33715,4440	12029,5736	-8119,5438	17379,3479	22622,3865	39639,8675	16064,9974	1046,6412	1997,9530	  0,1658	  0,0586
  3,2490	  4,0000	313,9509	2665,9154	-668,7763	537,5528	-1533,8321	10560,7227	15757,7527	1066,9111	-4428,2475	-81949,7719	-8971,8595	-25736,8529	-44742,2258	-29707,8845	-43120,1072	121,0463	-1196,1407	653,8409	2237,9515	6105,1140	-11899,2722	-2530,9414	8272,9531	29597,9853	40569,1469	38038,9122	11848,6661	4604,4711	12961,7835	1818,2611	  0,1600	  0,0586
  3,2780	  4,0000	574,1152	1098,7635	-2297,0530	-5081,9213	-1655,1374	-15859,5190	-3316,6012	-5352,7632	-1716,3494	-51588,3876	-81493,6278	-21631,8898	-25003,8226	-45780,8347	-28904,2032	479,7970	469,8501	-501,0482	3389,1748	8038,7873	7407,3996	4124,3356	9110,3285	7825,1970	-19727,8355	27552,6720	15720,8805	-322,9556	6784,1047	5423,1420	  0,1559	  0,0586
  3,3070	  4,0000	1348,9127	 68,0820	394,9858	-594,4401	-5814,0690	13509,8388	15820,1539	-10024,2178	-20715,4721	1010,3474	-30097,2608	-17807,9862	-24011,8479	-44967,8387	-27239,7530	832,3712	426,9823	-1441,9174	4178,6017	22436,2966	19757,8513	1162,3621	17304,4561	-196,5276	-28736,4022	3468,7135	17374,5604	-5662,2069	-12411,2776	3426,9414	  0,1564	  0,0586
  3,3350	  3,0000	-256,0576	-422,0133	1411,2326	3508,1083	-6715,4317	244,3971	10753,9905	13704,3107	13574,5319	18163,6721	19106,8931	15871,7754	20747,2477	26126,6118	27928,0627	-788,5066	-518,3163	1064,2723	-1987,1761	11018,2108	-5877,5993	1511,3376	-297,1208	2621,5526	2382,7080	8442,7856	-1064,9810	5178,1242	3420,6329	931,1779	  0,1866	  0,0659
  3,3640	  3,0000	-376,1281	-114,5963	-2270,3023	736,2979	339,7281	9042,7684	6672,6084	14244,7450	9559,8555	13232,7679	52163,3815	16127,9671	38818,1288	32206,5419	26499,0649	-299,0741	-742,9133	-1068,6258	-1582,4198	-7166,6882	-4119,6449	-4481,3028	-5281,7312	4987,2064	7738,7159	4293,2839	-920,7987	10944,6898	3996,8471	517,1817	  0,1852	  0,0659
  3,3930	  3,0000	241,3390	-629,6727	2545,3089	3299,0530	-6740,6610	10815,3374	6232,6384	11570,6597	18016,3858	12940,3727	26642,0435	18820,1883	26623,5444	28759,0487	27964,2345	-314,8128	868,4079	-1636,2412	-325,1445	-7548,5611	-180,6881	-4533,3534	-72,7929	10498,0933	3307,2876	2275,5086	10316,0176	17331,9410	-596,7944	1537,2782	  0,1852	  0,0659
  3,4220	  3,0000	292,8016	1066,5478	-791,5618	3113,1533	6261,6662	3655,3420	11712,7093	18100,1073	19036,8546	18340,7630	17506,0293	20191,7300	21195,3689	25878,8406	28266,8345	-386,6367	-645,6081	-96,6669	-2409,4866	-3755,8437	-10579,9862	13800,0632	-6334,2004	-2282,5011	11903,1861	9157,3591	-2193,1290	5322,8906	4136,3205	-1013,2815	  0,1881	  0,0659
  3,4500	  2,0000	490,2159	-137,0221	-283,6357	624,4110	-862,2600	1808,8629	-16460,7493	1014,0776	-9139,3736	1325,0030	-5384,7496	-8103,0928	-13239,5653	-9090,6645	-11326,5752	432,8593	-133,8766	608,4025	1543,2522	-1077,6150	-1544,4226	13699,7634	5392,8851	-10643,9065	6217,4326	6288,7414	1253,7781	7416,1479	1256,0022	-94,3024	  0,1453	  0,0806
  3,4790	  2,0000	-186,9640	-66,0815	4747,5577	1097,8912	-936,2770	1123,5140	3371,9592	6129,6330	-25589,8689	1798,1307	-4107,7251	-7408,5232	-9552,8196	-9034,9765	-11162,5215	102,4413	-288,0377	-2232,3070	1407,7815	-1002,4042	-3121,0018	2983,0482	724,5968	18472,9206	6504,4455	7643,3005	2963,0725	6523,8876	309,3388	327,8141	  0,1444	  0,0806
  3,5080	  2,0000	-275,3356	  8,3586	659,3416	1448,7948	-1103,5981	1278,9235	-9647,2431	6379,3447	67893,7800	2517,8966	-3920,4261	-9049,7834	-13063,6920	-8705,5963	-11693,7161	 67,9801	-252,5467	-628,8073	2154,0254	-4181,6667	-1773,7779	-7889,3370	12333,1822	26799,4130	5642,5283	3433,7980	1321,3165	7732,3107	 54,9246	1690,0267	  0,1441	  0,0806
  3,5370	  2,0000	-472,5601	476,4286	-668,1642	-480,8976	-416,9246	4039,6598	2834,7596	-25387,6281	-33653,0441	1678,1319	-5305,5498	-6860,6339	-12402,7701	-7816,3043	-10424,5949	147,1006	-108,5491	2174,2516	1215,0144	-3213,7792	-1751,0147	4722,7411	21341,0640	40014,6345	4503,7128	7149,5146	1810,7055	4202,2327	-385,8914	891,1906	  0,1447	  0,0806
  3,5650	  1,0000	167,1964	455,2264	905,3207	209,3128	3563,7221	-10603,5439	4376,6763	273,4634	6809,7637	6769,8530	11383,1509	15828,7782	14242,1456	17252,4613	15317,7321	-206,1902	-351,1629	535,9795	-841,3729	-10416,3420	 -0,4236	-1805,2015	-4543,4222	-1404,9705	-6517,3448	-7451,8916	-5518,8561	3354,8554	3411,3367	-1278,7630	  0,1233	  0,0586
  3,5940	  1,0000	131,3014	-308,1073	886,7537	1546,7199	-1117,7382	932,7179	-3866,4469	2808,5797	8001,8590	9472,2127	16291,0123	14822,9365	14782,7721	13129,1571	13353,6646	-133,3844	-130,1194	-65,1489	2051,5354	-1697,0131	-9735,2472	-4206,7540	-15851,2424	-5238,3322	-7684,7795	-8612,1664	-8705,8889	-344,0557	-8469,9061	-6563,0445	  0,1233	  0,0586
  3,6230	  1,0000	104,9470	570,2081	124,3839	-967,7523	-2691,1359	-12428,7886	3858,4585	-7480,4378	25940,0050	8196,1699	7843,1447	11723,6730	13866,4545	14410,5356	17352,9429	-92,5013	521,2689	-476,9697	-2188,8189	-586,8002	11257,0585	-4552,8326	-1515,6189	-33481,3226	-1566,4260	-8463,1923	-3391,3402	-9726,6552	-3877,3020	207,9999	  0,1233	  0,0586
  3,6520	  1,0000	739,3292	-24,3828	289,4268	-1398,2190	-1447,8626	1546,6916	12907,3541	5341,7761	14392,3713	9777,8937	30323,9531	16023,5281	20057,3464	15980,7624	18350,2708	-17,4024	-283,7412	-211,5282	-1762,7651	-2047,7073	-1648,2978	-5164,9258	-5910,9425	-4490,3102	32940,3117	-9217,2111	4562,0071	1422,3119	-3041,0520	-677,1859	  0,1239	  0,0586
  3,6800	  0,0000	-68,4346	241,6427	316,7341	-952,1843	-1648,6109	-2062,3962	488,7522	3536,5972	42975,7711	8856,7941	-32902,5665	-10565,2065	-11651,6065	-15714,2869	-16571,5631	-91,7632	-426,6307	-38,5271	 40,0266	1707,8045	-3597,9883	-5597,0818	5281,8447	72910,4309	9289,6100	10106,7814	10659,8028	7530,5702	493,2557	-813,6796	  0,0788	  0,0732
  3,7090	  0,0000	-32,4515	100,7858	353,6143	667,2845	-150,9714	3634,6699	434,3555	7131,0759	8622,9053	1588,6320	-3972,0903	-13132,3142	-11257,7735	-13881,8420	-16661,2955	 -5,3481	-220,1577	-545,9924	1066,9753	-1352,8660	-5401,4043	-4961,6171	-11729,1508	-25788,7435	8279,4673	39745,4841	3562,3261	5896,5941	-177,4858	-1979,8865	  0,0785	  0,0659
  3,7380	  0,0000	-251,4086	-467,6048	-419,3519	819,6824	-720,0979	1622,4396	2768,3153	-2040,2255	25440,5674	-11537,8735	-13061,8691	-14964,7013	-14782,4580	-10577,5067	-17654,9322	-149,3716	-89,3717	-369,8481	-1759,3580	-1024,4165	-915,1742	-4107,2144	-8201,7800	-15895,9346	10511,1006	11777,4918	7063,9313	1637,4109	-153,2731	3468,3959	  0,0782	  0,0732
  3,7670	  0,0000	-249,5286	 42,3520	-1137,8332	5062,4946	-311,7096	700,8194	5230,2176	-24629,5008	-413,6388	969,9844	-8443,2320	-10188,0616	-17353,5733	-13362,3475	-18840,8540	 67,0931	-168,5513	3045,7220	3636,3605	-944,9787	-2074,6057	-4885,9312	9593,6064	-8795,9914	8881,1342	8392,4952	3969,3657	-1430,8356	2803,4310	1623,7663	  0,0788	  0,0732
  3,7950	  5,0000	655,2388	6330,9438	8322,9432	4889,1845	31728,9364	15373,0048	24603,6304	20880,7906	18877,1210	27474,4012	36771,0912	31610,6913	49373,1424	40572,8787	40315,6463	219,0134	-3619,6911	2943,5454	-3281,6228	-9715,0765	10070,2913	-3952,8152	4756,6632	6876,5520	11426,3245	17595,3573	3440,2966	17074,5121	-1039,9010	-5577,5811	  0,3316	  0,0659
  3,8240	  5,0000	543,6883	-1177,6277	-1377,3294	5418,7178	-9119,2612	5201,0346	27637,4364	27224,9450	22881,2886	21456,5979	25784,8427	29334,0711	36629,4345	45559,0939	36612,7340	115,5747	1636,9849	1074,5096	453,6626	8819,7684	21153,4129	17000,3413	-942,2051	17903,7453	5466,2974	2686,7166	7984,6311	15823,7530	5924,3615	2356,9422	  0,3302	  0,0659
  3,8530	  5,0000	489,0444	925,0130	-4594,1777	1076,5998	-44875,6942	13943,7002	16394,1111	57663,8624	21870,2308	16443,0983	38557,8695	32869,4553	33463,8846	37699,2082	40133,4536	-17,7904	-326,8271	723,6346	-5801,1217	-7498,8170	5127,2707	1010,4760	73988,9154	12484,2629	5625,0504	25730,1831	-7173,4582	10794,6390	5670,3161	-4698,9200	  0,3290	  0,0659
  3,8820	  5,0000	455,0689	-1917,1224	-1725,2453	3883,8121	-10332,2925	7592,8973	10597,1066	16065,5360	31251,3342	21775,9001	25101,4526	29261,6542	30840,9002	34029,0890	38138,9697	497,7608	-166,1698	119,8117	-7145,4380	1478,0764	-14938,9751	-4492,8202	23582,2824	12280,4602	14783,7463	26274,8906	3854,6177	10264,8515	1376,0219	576,6049	  0,3293	  0,0732
  3,9100	  4,0000	362,8496	1554,3295	-127,6684	-5295,5919	1694,9404	5947,1996	-5743,9344	-7753,0663	-14749,7930	-16569,7577	-17613,2091	-22281,5587	-32183,1428	-32549,3788	-31489,8332	1448,8838	2677,8744	1393,0843	3469,9966	2656,1658	-5301,7065	9291,4458	3388,7324	8942,9520	8578,4723	30742,0900	24679,1376	-3023,8416	3894,5475	-8619,7023	  0,1573	  0,0586
  3,9390	  4,0000	259,3338	888,5435	-370,7421	2035,0910	4079,5912	8633,4589	15106,6746	-4338,5280	-16085,2692	-44308,4343	-38893,1103	-34600,7478	-25949,4023	-45802,1750	-31329,7971	-145,1553	557,3320	1141,1449	1913,2163	2274,5124	3439,5385	 -2,2607	13779,0964	16924,4201	46466,6657	18492,3943	18681,0141	10192,1597	24940,2713	-6216,0560	  0,1562	  0,0586
  3,9680	  4,0000	 71,7702	-2013,2348	720,2355	-2217,0372	23893,4059	12320,6168	-5708,5895	-40994,5896	13195,4215	-32737,6416	-31317,1931	-27711,9787	-39123,7566	-48472,4051	-35480,0759	388,6137	694,0862	663,3147	-186,7907	23754,3618	-5071,8025	-8272,9602	-31698,4487	28835,6658	5642,3846	7884,7659	-2340,7840	4570,5490	-8168,9976	4981,1964	  0,1553	  0,0586
  3,9970	  4,0000	-665,1033	515,3093	-1976,3685	632,2286	148,8127	22415,7094	-7346,6219	-3347,2737	8427,8607	28395,3212	-20819,7781	-13967,2621	-29818,4036	-44624,9978	-32537,4534	1694,1122	412,7007	-2062,9692	3134,3495	7961,5410	-46453,3042	5832,4351	30577,1317	12360,6362	-63311,2777	907,6779	28884,6947	1469,4694	-3713,8791	1818,9766	  0,1567	  0,0586
  4,0250	  3,0000	-509,2781	-1253,0868	-801,9059	3152,3835	749,0465	5991,7373	10538,7614	9441,0993	18146,6682	17101,5183	29701,6399	18205,1845	25401,4808	23621,4436	26815,9594	-1207,7147	510,4462	-584,1782	-3726,0848	-9916,1450	-3456,5799	4949,1417	-3254,6826	6133,1436	5326,5514	6296,8995	1588,9017	7064,7104	3132,5404	 52,9499	  0,1896	  0,0659
  4,0540	  3,0000	567,7787	-404,1122	3572,1042	1246,7601	-4883,1812	5549,3418	14664,5558	7744,5134	15405,2950	19980,5559	28211,2354	27613,3338	22883,2279	26506,6529	25013,9169	841,9028	-362,7463	2176,3095	3062,9549	-2209,2420	-2927,9651	-4450,1892	-5956,7534	3995,0174	6583,7979	13162,1153	-2549,8339	13018,0818	3466,2403	4485,1519	  0,1919	  0,0659
  4,0830	  3,0000	403,1127	-551,3949	-1382,2415	1271,4250	5654,3473	36413,7072	18337,1777	8029,3786	35695,3408	14345,2901	24100,5000	19739,2064	25418,6299	29844,5986	30232,6176	-280,3034	-1341,4753	824,3262	-2986,9568	-6523,7195	-56025,2163	-14637,5103	-8406,4397	-5111,5214	3965,8175	2147,4762	9052,1974	2231,5563	995,8000	-672,6488	  0,1942	  0,0732
  4,0990	  0,0000	-418,3463	-102,7440	-802,5247	1295,1509	-1189,7936	2552,8649	848,7166	8127,8493	2608,7441	6042,9998	-10702,0909	-15318,7444	-18560,2323	-12111,3030	-15613,0087	-266,9863	-186,2558	356,2921	-1504,0609	-2132,4711	-1300,8566	-3394,7138	-8329,8121	-7378,5013	13917,4298	7302,2641	4923,7079	6694,2706	3499,1425	1425,1245	  0,0782	  0,0659